dataset_name,peekbank_subject_id,peekbank_admin_id,age,lab_subject_id,sex,n_trials,n_trials_rt,short_window_accuracy,long_window_accuracy,rt,log_rt
adams_marchman_2018,197,226,17,11003,female,30,15,0.626282086711251,0.6525229862665957,840,6.648177989544021
adams_marchman_2018,197,227,17,11003,female,16,5,0.5986796088875245,0.673679773631383,760,6.595743663301313
adams_marchman_2018,197,228,19,11003,female,28,10,0.23511132485815273,0.22367498620772094,2142.5,7.498026345221543
adams_marchman_2018,197,229,19,11003,female,25,13,0.7137785842783612,0.7275380212504835,1059.6153846153845,6.789739531580227
adams_marchman_2018,198,230,16,11009,female,30,11,0.6901728943074924,0.6187216766018669,940.9090909090909,6.6957530219784145
adams_marchman_2018,198,231,16,11009,female,30,16,0.6110374039055771,0.5844830891331367,901.5625,6.754032043366853
adams_marchman_2018,198,232,18,11009,female,31,16,0.6966532632754733,0.6803638057913145,698.4375,6.44666342784753
adams_marchman_2018,198,233,18,11009,female,31,11,0.6416737734051456,0.6183954884109646,931.8181818181818,6.6277254351372745
adams_marchman_2018,199,234,15,11011,male,31,16,0.6100361948986657,0.519646946169484,1068.75,6.885715568647989
adams_marchman_2018,199,235,16,11011,male,32,14,0.5622197859613637,0.5652374344873545,1421.4285714285713,7.1844025533366676
adams_marchman_2018,199,236,18,11011,male,28,11,0.5063255828264457,0.5032487537657304,1547.7272727272727,7.1965598357287925
adams_marchman_2018,199,237,18,11011,male,28,15,0.5298403909524483,0.5684626942250163,1330,7.086625726649944
adams_marchman_2018,200,238,15,11014,male,31,14,0.6761698704178234,0.652131101808419,1021.4285714285714,6.82021617583125
adams_marchman_2018,200,239,15,11014,male,31,17,0.6745296992775907,0.7616074566529042,1208.8235294117646,6.9582968505936424
adams_marchman_2018,200,240,17,11014,male,32,15,0.7119767399427881,0.7570814133565869,1063.3333333333333,6.885987794469059
adams_marchman_2018,200,241,17,11014,male,32,15,0.7113426158246973,0.7279479083838423,1178.3333333333333,6.992203888076031
adams_marchman_2018,201,242,15,11035,male,32,8,0.667617853889727,0.6259357594754233,1337.5,7.0144803672491935
adams_marchman_2018,201,243,16,11035,male,32,13,0.6275993231135631,0.635375819680412,1259.6153846153845,7.096138666803336
adams_marchman_2018,201,244,19,11035,male,32,8,0.6885515373125705,0.6476895139350319,1612.5,7.2510988949144055
adams_marchman_2018,201,245,19,11035,male,32,13,0.7717706437491302,0.7008042936247555,873.0769230769231,6.729380244731615
adams_marchman_2018,202,246,16,11036,male,26,12,0.5653612583133326,0.5711655151404722,1677.0833333333333,7.346471571435251
adams_marchman_2018,202,247,16,11036,male,28,12,0.6515213941799503,0.6779299569951774,1737.5,7.304019792384855
adams_marchman_2018,202,248,18,11036,male,24,8,0.7242630234713147,0.6608152913135362,996.875,6.887318157838874
adams_marchman_2018,202,249,19,11036,male,26,7,0.681481379563858,0.7183653269610769,1175,6.9761309931223865
adams_marchman_2018,203,250,15,11037,male,30,12,0.654274542200295,0.7078087516407878,1381.25,7.089596855060824
adams_marchman_2018,203,251,15,11037,male,31,12,0.7149112056224888,0.7862430276251169,1129.1666666666667,6.987970834899737
adams_marchman_2018,203,252,18,11037,male,32,17,0.7436605971771522,0.6899672929691854,995.5882352941177,6.79387879801598
adams_marchman_2018,203,253,18,11037,male,31,12,0.7672073372488812,0.749942794584863,893.75,6.769480380397988
adams_marchman_2018,204,254,15,11070,female,32,18,0.6448690598214716,0.590442665068297,919.4444444444445,6.771679886711694
adams_marchman_2018,204,255,16,11070,female,31,12,0.5923734420288592,0.5778132893713738,712.5,6.545746451760678
adams_marchman_2018,204,256,19,11070,female,25,15,0.6960177017099777,0.6334687848128284,625,6.42779505186635
adams_marchman_2018,204,257,19,11070,female,28,12,0.7146295464554593,0.6201351225438524,606.25,6.395025208148163
adams_marchman_2018,205,258,17,11136,male,31,13,0.7534697601252107,0.7197645848622788,888.4615384615385,6.690542110448802
adams_marchman_2018,205,259,17,11136,male,32,14,0.6871437544064278,0.5469431605973583,926.7857142857143,6.681809666939055
adams_marchman_2018,205,260,19,11136,male,31,17,0.7093319711221301,0.625980286667453,883.8235294117648,6.708199474232317
adams_marchman_2018,205,261,19,11136,male,24,12,0.6394262389338857,0.5739142230287592,850,6.640465238500926
adams_marchman_2018,206,262,16,11141,female,31,15,0.7681873983333656,0.71917678491632675,918.3333333333334,6.785593721085068
adams_marchman_2018,206,263,16,11141,female,29,8,0.7530130736107797,0.7297004866348743,1037.5,6.8980962077421974
adams_marchman_2018,206,264,18,11141,female,31,19,0.6612308379705623,0.6557272513956423,942.1052631578947,6.7872538022816835
adams_marchman_2018,206,265,18,11141,female,30,15,0.7577783434779704,0.6953500031170766,1018.3333333333333,6.8077072605671525
adams_marchman_2018,207,266,15,11200,female,27,14,0.5835668102053909,0.5535899775514032,1383.9285714285713,7.123323405294643
adams_marchman_2018,207,267,16,11200,female,29,18,0.6900380978953625,0.628217744313256,820.8333333333334,6.683872178330873
adams_marchman_2018,207,268,17,11200,female,27,13,0.6233419293773421,0.5549998130153768,1388.4615384615386,7.097559584491572
adams_marchman_2018,207,269,18,11200,female,23,14,0.44708379457088776,0.4509735151632777,1592.857142857143,7.230805768150801
adams_marchman_2018,208,270,15,11327,male,27,12,0.6169300278420096,0.5882665268464431,1170.8333333333333,6.942504778290469
adams_marchman_2018,208,271,16,11327,male,26,10,0.4837897042167139,0.47426954594065496,2200,7.595635544844234
adams_marchman_2018,208,272,18,11327,male,28,11,0.5112938035554082,0.5612232433916904,1475,7.196007091275982
adams_marchman_2018,208,273,18,11327,male,30,14,0.5007005842566123,0.5276239515978491,1482.142857142857,7.231891510779798
adams_marchman_2018,209,274,15,11356,female,26,14,0.6893571358762385,0.6438354058113608,1057.142857142857,6.900785593628084
adams_marchman_2018,209,275,15,11356,female,26,9,0.6853669301768127,0.6549347347270661,925,6.763650278764473
adams_marchman_2018,209,276,18,11356,female,26,13,0.670219438698712,0.6699902038077035,984.6153846153846,6.809720469661305
adams_marchman_2018,210,277,16,11417,male,30,10,0.5838706686524523,0.6192266069195129,1585,7.166721612156238
adams_marchman_2018,210,278,16,11417,male,30,14,0.5630730864835796,0.6120655642988694,1596.4285714285713,7.230912492192147
adams_marchman_2018,210,279,18,11417,male,29,13,0.7415911187436315,0.6661995713347669,678.8461538461538,6.496765419609224
adams_marchman_2018,210,280,18,11417,male,31,17,0.7092861695670232,0.6975381377432287,829.4117647058823,6.691552509288547
adams_marchman_2018,211,281,16,11611,male,32,17,0.5844714575167569,0.5656326806025997,1282.3529411764707,7.0706793557187915
adams_marchman_2018,211,282,16,11611,male,30,13,0.5941911790564548,0.460788266430486,1057.6923076923076,6.902708438750929
adams_marchman_2018,211,283,18,11611,male,30,9,0.5205989924325717,0.5395221443748948,1052.7777777777778,6.784537847141866
adams_marchman_2018,211,284,19,11611,male,30,13,0.6986139454236706,0.6333388278688921,1078.8461538461538,6.915377587021878
adams_marchman_2018,212,285,16,11655,male,30,14,0.6709815267769973,0.5837294133378084,921.4285714285713,6.65457376828284
adams_marchman_2018,212,286,16,11655,male,30,15,0.7055433446788342,0.6850178761075474,898.3333333333334,6.758216379620327
adams_marchman_2018,212,287,18,11655,male,30,11,0.6920209119469654,0.5935641032074223,904.5454545454545,6.769208552090162
adams_marchman_2018,212,288,19,11655,male,26,14,0.6938511347846259,0.6635717269707222,935.7142857142857,6.716931059665618
adams_marchman_2018,213,289,16,11743,male,30,13,0.7014678308262515,0.6867721532806672,1011.5384615384615,6.8470133459912415
adams_marchman_2018,213,290,16,11743,male,28,18,0.6949708648868753,0.6575241963572243,1113.888888888889,6.853175473662567
adams_marchman_2018,213,291,18,11743,male,32,16,0.676528988467463,0.6096851714680682,1209.375,6.9812324774511785
adams_marchman_2018,213,292,18,11743,male,28,18,0.6947845359024899,0.6588011084419698,1108.3333333333333,6.854828264404509
adams_marchman_2018,214,293,17,11958,female,28,14,0.724330024713557,0.7356136068426066,680.3571428571429,6.486408689580792
adams_marchman_2018,214,294,17,11958,female,24,12,0.5879203505923689,0.6283405152776935,820.8333333333334,6.683775699361556
adams_marchman_2018,214,295,20,11958,female,24,16,0.7138186187897684,0.7339526829908429,879.6875,6.70007415775826
adams_marchman_2018,214,296,20,11958,female,32,14,0.7593167298443032,0.7533238322668296,833.9285714285714,6.655523068431099
adams_marchman_2018,215,297,16,12095,male,30,15,0.5865018517161222,0.5537203564405782,691.6666666666666,6.468914033774845
adams_marchman_2018,215,298,16,12095,male,29,12,0.49005951809200854,0.513264511389802,1435.4166666666667,7.225130756278352
adams_marchman_2018,215,299,19,12095,male,32,11,0.44690793497835857,0.46216764830428464,990.9090909090909,6.728376794903815
adams_marchman_2018,215,300,19,12095,male,31,15,0.59600274362273,0.5553048472587289,1025,6.828457850415803
adams_marchman_2018,216,301,16,12297,female,32,17,0.5840598630105643,0.6772498938823732,1779.4117647058824,7.363952581013743
adams_marchman_2018,216,302,16,12297,female,29,15,0.6563547257945037,0.6764603545598892,1076.6666666666667,6.867004809959755
adams_marchman_2018,216,303,18,12297,female,6,1,0.6433954933954934,0.6017957211129215,NA,NA
adams_marchman_2018,216,304,18,12297,female,28,8,0.7218025437333047,0.747484781766859,934.375,6.7742607454777835
adams_marchman_2018,217,305,15,12316,female,32,16,0.5542001051151073,0.5862677290177982,1401.5625,7.121801124058396
adams_marchman_2018,217,306,15,12316,female,31,19,0.7042806950050278,0.6643414664409093,931.578947368421,6.7916064162731
adams_marchman_2018,217,307,18,12316,female,32,15,0.8241590209088164,0.7284116251154166,696.6666666666666,6.538599743718667
adams_marchman_2018,217,308,18,12316,female,31,12,0.6457384913304858,0.6899346107567744,1066.6666666666667,6.885279786752933
adams_marchman_2018,218,309,16,12390,male,32,11,0.5326960549510483,0.5548972300523525,1752.2727272727273,7.239743200105387
adams_marchman_2018,218,310,16,12390,male,31,11,0.4606910506656272,0.4876103540396032,1200,7.000117215452429
adams_marchman_2018,218,311,18,12390,male,32,20,0.6943984735225909,0.6985976987864445,982.5,6.8496020772356285
adams_marchman_2018,218,312,18,12390,male,32,12,0.6044331459447881,0.5525028741935762,1077.0833333333333,6.945421012361343
adams_marchman_2018,219,313,16,12398,female,31,9,0.5079933423967924,0.5002828785011587,1577.7777777777778,7.140675320571509
adams_marchman_2018,219,314,16,12398,female,32,13,0.4598866089026841,0.5139984355832726,1953.8461538461538,7.4778565475262635
adams_marchman_2018,219,315,18,12398,female,31,14,0.45309466597069276,0.47855583457333556,1414.2857142857142,7.092518432759959
adams_marchman_2018,219,316,18,12398,female,30,15,0.5973302134798467,0.5838242389443403,1271.6666666666667,7.00614348190393
adams_marchman_2018,220,317,16,12409,female,31,16,0.5261761363347539,0.6112507999956602,1600,7.2377254168668825
adams_marchman_2018,220,318,16,12409,female,30,15,0.785164257365442,0.7727055923610344,881.6666666666667,6.717926236604478
adams_marchman_2018,220,319,18,12409,female,18,4,0.6306171606751952,0.5153979076006461,837.5,6.688262312089132
adams_marchman_2018,220,320,18,12409,female,29,8,0.7848338198927043,0.7202662369015475,859.375,6.654345677351508
adams_marchman_2018,221,321,17,12417,male,29,8,0.4843825156211047,0.5063832069932332,2087.5,7.394295280050172
adams_marchman_2018,221,322,17,12417,male,26,14,0.5382024141432107,0.5713421513776954,1016.0714285714286,6.786120498507129
adams_marchman_2018,221,323,19,12417,male,27,12,0.6253762623605291,0.5392174838446685,693.75,6.500139695284554
adams_marchman_2018,221,324,19,12417,male,28,8,0.7318591007393517,0.6285881424105713,853.125,6.72498978053875
adams_marchman_2018,222,325,15,12512,female,32,18,0.6752454745200612,0.634700059909097,916.6666666666666,6.784190725639669
adams_marchman_2018,222,326,15,12512,female,29,13,0.6338330226092981,0.6030170693106852,980.7692307692307,6.745812406208946
adams_marchman_2018,222,327,18,12512,female,21,8,0.6588879684285912,0.6382809463101168,656.25,6.440282760899711
adams_marchman_2018,222,328,18,12512,female,29,13,0.7853726811051246,0.7098176988862208,709.6153846153846,6.5143749028342945
adams_marchman_2018,223,329,17,12520,female,28,15,0.698759093605445,0.6954011118098329,603.3333333333334,6.376442605266924
adams_marchman_2018,223,330,17,12520,female,29,14,0.5860511957582715,0.6095401957220036,1155.357142857143,6.927087589583991
adams_marchman_2018,223,331,20,12520,female,26,12,0.6419321739307444,0.611215284207282,1339.5833333333335,6.947755262949426
adams_marchman_2018,223,332,20,12520,female,20,15,0.5942786564789111,0.6087725947042946,961.6666666666667,6.646141251915453
adams_marchman_2018,224,333,15,12547,female,14,9,0.5547505923560896,0.5908846542884693,1263.888888888889,6.8480646102819955
adams_marchman_2018,224,334,15,12547,female,8,6,0.6689260249554367,0.6320596529835867,1100,6.953573645536484
adams_marchman_2018,224,335,18,12547,female,23,11,0.6555194907603266,0.6440419933656036,1095.4545454545455,6.940902459253159
adams_marchman_2018,224,336,18,12547,female,31,14,0.6568401777566887,0.60674448959061,783.9285714285714,6.629861174779129
adams_marchman_2018,225,337,15,12608,female,30,0,0.5715890245740992,0.5280209861961177,NA,NA
adams_marchman_2018,225,338,15,12608,female,31,10,0.6233809399101633,0.5782666741747426,1267.5,6.987861405021822
adams_marchman_2018,225,339,18,12608,female,31,17,0.5939992673836451,0.6555798747701641,970.5882352941177,6.670607752758177
adams_marchman_2018,225,340,18,12608,female,28,10,0.6818414106467158,0.6524621362011732,1012.5,6.769904383879322
adams_marchman_2018,226,341,16,12612,female,31,13,0.6007718549626617,0.6024140166880887,1146.1538461538462,6.908463211786506
adams_marchman_2018,226,342,16,12612,female,32,18,0.644855952913917,0.6099752723808399,1048.611111111111,6.9085863264626175
adams_marchman_2018,226,343,18,12612,female,32,13,0.6224038140088515,0.6666212276748765,788.4615384615385,6.596278554949286
adams_marchman_2018,226,344,19,12612,female,32,14,0.68309073065862,0.6305400922439447,616.0714285714286,6.4060822318982025
adams_marchman_2018,227,345,17,12683,female,31,11,0.8102102143930376,0.7842433418205466,827.2727272727273,6.699228861705082
adams_marchman_2018,227,346,17,12683,female,32,13,0.7862595145289485,0.8333391153428904,761.5384615384615,6.5886732573986535
adams_marchman_2018,227,347,20,12683,female,24,11,0.6966202139414306,0.7183776068482913,1106.8181818181818,6.886438102801192
adams_marchman_2018,227,348,20,12683,female,31,13,0.7405030491059545,0.7173869320746573,821.1538461538462,6.653672950796358
adams_marchman_2018,228,349,16,12717,male,31,11,0.6583122719806179,0.6089090711057221,981.8181818181818,6.771472283708238
adams_marchman_2018,228,350,16,12717,male,31,13,0.6483776453003678,0.636792802260278,1205.7692307692307,6.959318834818465
adams_marchman_2018,228,351,18,12717,male,32,16,0.7417775879008319,0.7943445634211329,950,6.759093627728439
adams_marchman_2018,228,352,18,12717,male,32,14,0.6898469126644997,0.7064795371355724,1176.7857142857142,6.931096057537589
adams_marchman_2018,229,353,17,12724,male,15,8,0.5318887476836514,0.5931340124717099,1634.375,7.235393276711327
adams_marchman_2018,229,354,18,12724,male,14,5,0.5050196499595376,0.5439892526519197,1865,7.444460348557527
adams_marchman_2018,229,355,19,12724,male,10,4,0.6714394132737747,0.7477223756747807,1631.25,7.3212325889898695
adams_marchman_2018,229,356,19,12724,male,10,4,0.48417963873817527,0.6099352098593827,1143.75,7.014267449078991
adams_marchman_2018,230,357,16,12737,female,30,10,0.7357769467863222,0.664545283683771,827.5,6.642276732333302
adams_marchman_2018,230,358,16,12737,female,31,14,0.7496748433294049,0.6345606506660619,596.4285714285714,6.353870292885564
adams_marchman_2018,230,359,18,12737,female,19,13,0.5770694908743021,0.6020626805187405,759.6153846153846,6.539049058493425
adams_marchman_2018,230,360,18,12737,female,32,12,0.5761926445384266,0.5879554789540058,783.3333333333334,6.596695854656118
adams_marchman_2018,231,361,16,12828,male,17,6,0.43212698919459236,0.46080613295787404,1304.1666666666667,7.0209677544698685
adams_marchman_2018,231,362,16,12828,male,29,11,0.5372652552759735,0.5484121981155153,1586.3636363636363,7.228912516605296
adams_marchman_2018,231,363,18,12828,male,22,8,0.6909217405325135,0.6601437244711486,965.625,6.834952907509979
adams_marchman_2018,231,364,19,12828,male,24,8,0.8298875139778091,0.8163737789829492,878.125,6.732424716591897
adams_marchman_2018,232,365,16,12830,male,26,9,0.6107041604306411,0.5557418343857748,1475,7.095077708597911
adams_marchman_2018,232,366,17,12830,male,27,12,0.5244956603462567,0.5416808732700157,1343.75,7.078201299009283
adams_marchman_2018,232,367,18,12830,male,18,8,0.6034626540331945,0.5526885481700001,1537.5,7.047724582983998
adams_marchman_2018,232,368,18,12830,male,25,12,0.6398696792728172,0.5070242124750134,972.9166666666666,6.76892478785582
adams_marchman_2018,233,369,17,12840,female,22,8,0.6468601836843669,0.5865054315938045,1118.75,6.92817582125485
adams_marchman_2018,233,370,17,12840,female,19,5,0.6767050212316509,0.5762489202422494,1455,7.244265744717051
adams_marchman_2018,233,371,18,12840,female,18,8,0.5975528778913995,0.5406238635678475,1484.375,7.103733065090215
adams_marchman_2018,233,372,18,12840,female,17,8,0.5030878019523038,0.46472952886147845,1087.5,6.882495325890656
adams_marchman_2018,234,373,16,12878,female,32,19,0.695542632673532,0.6634316369237732,823.6842105263158,6.668189366965529
adams_marchman_2018,234,374,16,12878,female,32,8,0.7160139508620651,0.6810592681619676,625,6.415594132780413
adams_marchman_2018,234,375,18,12878,female,32,11,0.7815292857069066,0.6502287258757565,709.0909090909091,6.550549277009379
adams_marchman_2018,234,376,18,12878,female,31,13,0.7401192013296691,0.6713178443853002,721.1538461538462,6.416534061586172
adams_marchman_2018,235,377,17,12959,female,29,18,0.7596600224473263,0.800263176655895,758.3333333333334,6.589009462176826
adams_marchman_2018,235,378,17,12959,female,32,18,0.7840534914081796,0.7419743801243359,605.5555555555555,6.357693153983356
adams_marchman_2018,235,379,19,12959,female,32,15,0.7668542720127626,0.693637659952758,595,6.374855481435884
adams_marchman_2018,235,380,19,12959,female,32,15,0.704467345301622,0.6303266101456996,573.3333333333334,6.317856538812149
adams_marchman_2018,236,381,15,12971,female,32,9,0.788940220283146,0.7310572699651755,1038.888888888889,6.9153518676002035
adams_marchman_2018,236,382,16,12971,female,28,8,0.6661336978681983,0.5928170578037114,1187.5,6.932323012671703
adams_marchman_2018,236,383,18,12971,female,17,4,0.5551449753336545,0.4662953143850166,1025,6.826117067271944
adams_marchman_2018,236,384,18,12971,female,25,15,0.6314068884549474,0.6188905708910065,945,6.791037077937743
adams_marchman_2018,237,385,13,12973,male,31,10,0.5641812926566111,0.5432013324136266,1082.5,6.82279578554868
adams_marchman_2018,237,386,13,12973,male,31,14,0.5942031047221339,0.5594862062468517,880.3571428571429,6.645997904544745
adams_marchman_2018,237,387,19,12973,male,30,10,0.624045576527858,0.6014750774475973,1057.5,6.902305339895587
adams_marchman_2018,238,388,15,13044,female,31,12,0.5359165832515403,0.574419805818147,1566.6666666666667,7.261259971885368
adams_marchman_2018,238,389,16,13044,female,26,11,0.49361740724717984,0.49927294737165934,1568.1818181818182,7.129208565583672
adams_marchman_2018,238,390,18,13044,female,30,15,0.6028364507341029,0.5859944489851363,990,6.762574613975487
adams_marchman_2018,238,391,18,13044,female,30,10,0.6125964248076426,0.5495039971419534,1080,6.930243963438839
adams_marchman_2018,239,392,16,13061,female,32,10,0.5443844684162252,0.5572998771334324,935,6.802601614109834
adams_marchman_2018,239,393,16,13061,female,31,13,0.6567176175010718,0.6184866475500199,934.6153846153846,6.651658320046886
adams_marchman_2018,239,394,19,13061,female,32,15,0.7052522008181626,0.6897240715465283,706.6666666666666,6.520539176801508
adams_marchman_2018,239,395,19,13061,female,32,14,0.7632932856128646,0.642110489603562,675,6.480401847025059
adams_marchman_2018,240,396,15,13069,male,30,4,0.5355833113549638,0.6026802824883287,1687.5,7.392682258786178
adams_marchman_2018,240,397,16,13069,male,28,10,0.5305105161973844,0.5994727799611658,1645,7.318865038738991
adams_marchman_2018,240,398,18,13069,male,29,9,0.6054684651125972,0.6589121035008478,1530.5555555555557,7.260443274138012
adams_marchman_2018,240,399,19,13069,male,26,11,0.5527302637568132,0.585050403197883,1193.1818181818182,6.9419122554260655
adams_marchman_2018,241,400,15,13073,male,30,13,0.5199114962360263,0.5750664734149872,1594.2307692307693,7.270036744022435
adams_marchman_2018,241,401,16,13073,male,31,12,0.5117888157596476,0.4995505637291645,1325,6.9676856231774025
adams_marchman_2018,241,402,18,13073,male,31,16,0.547418615967218,0.5671178093251262,1542.1875,7.16557983116214
adams_marchman_2018,241,403,18,13073,male,30,11,0.5522847558092329,0.5461937516071688,1754.5454545454545,7.382166536878968
adams_marchman_2018,242,404,16,13079,male,19,7,0.5709211220720172,0.6684436122401008,2507.1428571428573,7.7281342416834855
adams_marchman_2018,242,405,16,13079,male,30,8,0.4966227385169717,0.5832346985681247,1343.75,7.128146480475388
adams_marchman_2018,242,406,17,13079,male,31,11,0.7117377822341058,0.7237008614689314,1165.909090909091,6.974556749240155
adams_marchman_2018,242,407,18,13079,male,29,8,0.6940424791695711,0.6779329280025502,1012.5,6.856756044575115
adams_marchman_2018,243,408,16,13081,female,23,13,0.6928923428641718,0.6488672750848873,782.6923076923077,6.622344183232709
adams_marchman_2018,243,409,16,13081,female,7,4,0.5412597989212841,0.5903953260975179,937.5,6.635205831465364
adams_marchman_2018,243,410,19,13081,female,24,16,0.7159982587909984,0.6813281787033026,820.3125,6.642886537269226
adams_marchman_2018,243,411,19,13081,female,30,12,0.6824613271424111,0.6360932887447048,870.8333333333334,6.71202531183865
adams_marchman_2018,244,412,17,13094,male,26,9,0.6256947594174599,0.6567278771402886,1669.4444444444443,7.3532562292662105
adams_marchman_2018,244,413,17,13094,male,16,6,0.5086609955209689,0.5262467672877472,1466.6666666666667,7.052504633730161
adams_marchman_2018,244,414,18,13094,male,29,7,0.5618532700111575,0.5519383659759586,935.7142857142857,6.818281557524625
adams_marchman_2018,244,415,19,13094,male,27,14,0.6295199389974038,0.5216731299512969,1053.5714285714287,6.775208730905584
adams_marchman_2018,245,416,16,13096,male,6,3,0.5894436542741628,0.6115749328946414,883.3333333333334,6.711943036936193
adams_marchman_2018,245,417,16,13096,male,6,0,0.54375,0.31969733429587444,NA,NA
adams_marchman_2018,245,418,18,13096,male,15,2,0.8562832486000589,0.7747396452057306,975,6.7298640364042805
adams_marchman_2018,245,419,18,13096,male,22,8,0.493829197422486,0.516053343685799,1812.5,7.272988792394947
adams_marchman_2018,246,420,16,13128,female,17,7,0.5278949521891819,0.542684597019332,1742.857142857143,7.385760223338735
adams_marchman_2018,246,421,16,13128,female,25,4,0.5157100374917937,0.5344221158557083,781.25,6.544421275863241
adams_marchman_2018,246,422,18,13128,female,32,12,0.6399335711239317,0.6783791216948144,1404.1666666666665,7.101173151060649
adams_marchman_2018,246,423,19,13128,female,32,13,0.6463419965849253,0.616470773381518,1405.7692307692307,7.0670248797738315
adams_marchman_2018,247,424,15,13131,male,7,2,0.4682051925247711,0.4605162990604605,1887.5,7.531271425875328
adams_marchman_2018,247,425,15,13131,male,15,3,0.39279247146619845,0.43916179352585394,1358.3333333333333,7.042075938278819
adams_marchman_2018,247,426,19,13131,male,24,5,0.48645540393217795,0.4684437090016413,1505,7.105491758476864
adams_marchman_2018,247,427,19,13131,male,30,5,0.372492675231012,0.41255821758381683,2675,7.86603601189457
adams_marchman_2018,248,428,15,13142,female,26,14,0.7755969055380488,0.7323300993124751,689.2857142857143,6.517527411526925
adams_marchman_2018,248,429,15,13142,female,8,2,0.5711343751974328,0.6276602098546945,1475,7.188455233846598
adams_marchman_2018,248,430,18,13142,female,24,11,0.5830785579205546,0.554932071494975,1100,6.74276299437635
adams_marchman_2018,248,431,18,13142,female,26,11,0.710637683856724,0.7251626508650001,950,6.798643269607463
adams_marchman_2018,249,432,17,13151,female,32,21,0.7924032246740358,0.823153590748884,757.1428571428571,6.589311638457361
adams_marchman_2018,249,433,17,13151,female,32,18,0.8506053806815631,0.7641105344721674,570.8333333333334,6.338427144962795
adams_marchman_2018,249,434,18,13151,female,32,16,0.7934096086960665,0.6964840468110413,609.375,6.3967694432984885
adams_marchman_2018,249,435,18,13151,female,30,13,0.6998013111664603,0.686636810797919,605.7692307692307,6.392001613562265
adams_marchman_2018,250,436,16,13191,female,21,7,0.5142683629531969,0.5488142908010115,1107.142857142857,6.866497339776767
adams_marchman_2018,250,437,16,13191,female,21,3,0.561463028152309,0.6248182561987378,2066.6666666666665,7.595322155248452
adams_marchman_2018,250,438,18,13191,female,32,16,0.6379375661581886,0.5893100165240798,1217.1875,6.977904922587002
adams_marchman_2018,250,439,18,13191,female,32,7,0.5685729715366973,0.5352172175064601,1103.5714285714287,6.953124272139352
adams_marchman_2018,251,440,16,13199,male,32,11,0.6606266471569461,0.6038627292103622,1222.7272727272727,7.0366737294673145
adams_marchman_2018,251,441,17,13199,male,32,16,0.5737649307347955,0.5711936952893619,1060.9375,6.914571234575361
adams_marchman_2018,252,442,15,13233,male,26,6,0.6734745639114101,0.6208548710792543,933.3333333333334,6.8108950801248955
adams_marchman_2018,252,443,16,13233,male,27,11,0.6299126452695996,0.5310011931194067,1095.4545454545455,6.854448845510206
adams_marchman_2018,252,444,17,13233,male,15,11,0.6364799867011078,0.5586640906696849,963.6363636363636,6.690540570682085
adams_marchman_2018,252,445,17,13233,male,29,15,0.6914491210550114,0.6655532785481402,738.3333333333334,6.564943577605345
adams_marchman_2018,253,446,15,13293,female,31,7,0.6174058637149387,0.621032662643971,1307.142857142857,6.955298431817821
adams_marchman_2018,253,447,15,13293,female,32,12,0.6288193451196102,0.5990373543798114,1689.5833333333333,7.240072894680096
adams_marchman_2018,253,448,19,13293,female,32,15,0.6141827605171876,0.6328645585418631,670,6.414117444790597
adams_marchman_2018,253,449,19,13293,female,28,13,0.4628574905817495,0.5483817354892527,1046.1538461538462,6.745520329843498
adams_marchman_2018,254,450,17,13304,female,12,6,0.5023433023559598,0.5658752868860476,983.3333333333334,6.841456546939234
adams_marchman_2018,254,451,17,13304,female,22,12,0.44151110561818574,0.41748241915123885,1187.5,6.953127890849803
adams_marchman_2018,254,452,18,13304,female,27,12,0.6528917773540381,0.5620120858345842,687.5,6.4984233243349765
adams_marchman_2018,254,453,18,13304,female,26,13,0.7750235581860414,0.7665360859054217,590.3846153846154,6.349370107140012
adams_marchman_2018,255,454,16,13326,male,29,14,0.7638269526945534,0.7125193244998356,717.8571428571429,6.540894873246988
adams_marchman_2018,255,455,16,13326,male,19,5,0.602079992303522,0.5548463758387597,1280,6.991654074207642
adams_marchman_2018,255,456,18,13326,male,29,11,0.7001199568784234,0.6563889767046327,1161.3636363636365,6.85614242111572
adams_marchman_2018,255,457,18,13326,male,29,12,0.5761388155388352,0.4892034025985692,1043.75,6.757119773884307
adams_marchman_2018,256,458,15,13332,male,27,14,0.6840136175122546,0.6208519747119374,732.1428571428571,6.54465384527492
adams_marchman_2018,256,459,15,13332,male,27,15,0.7215815281242585,0.6532412721695708,751.6666666666666,6.564258558474541
adams_marchman_2018,256,460,18,13332,male,25,12,0.5949250955161249,0.5672696991265037,893.75,6.75167701202
adams_marchman_2018,256,461,18,13332,male,21,12,0.6789979248035707,0.7055628796134663,745.8333333333334,6.5820291740265775
adams_marchman_2018,257,462,15,13346,male,31,8,0.6026932999574536,0.6027139831828542,1865.625,7.4593016007017185
adams_marchman_2018,257,463,16,13346,male,32,12,0.6653299006063553,0.6026616390510723,1079.1666666666667,6.889734441166077
adams_marchman_2018,257,464,19,13346,male,30,14,0.5751470516983702,0.5850243287536459,1041.0714285714287,6.870858744387833
adams_marchman_2018,257,465,19,13346,male,29,7,0.7679504546937103,0.7296064321289483,807.1428571428571,6.653249537784791
adams_marchman_2018,258,466,14,13364,male,25,7,0.47050487985858686,0.49885637742912775,1335.7142857142858,7.056358290816283
adams_marchman_2018,258,467,14,13364,male,32,13,0.5217481842780892,0.5383764089567851,1623.076923076923,7.235366499698767
adams_marchman_2018,259,468,15,13503,male,32,15,0.6789820722460099,0.7201903659000295,1176.6666666666667,6.988087952773821
adams_marchman_2018,259,469,16,13503,male,31,18,0.7452384071818952,0.7713669722020315,863.8888888888889,6.7196255382121315
adams_marchman_2018,259,470,18,13503,male,23,15,0.6604724619792801,0.761246992947666,1001.6666666666666,6.846035005628275
adams_marchman_2018,259,471,18,13503,male,29,12,0.6532479315565302,0.6778529982521976,837.5,6.692554994784627
adams_marchman_2018,260,472,16,13604,male,24,9,0.5554813838527561,0.5559557216250193,1180.5555555555557,6.990114669599685
adams_marchman_2018,260,473,16,13604,male,27,6,0.5596530904833144,0.5164853106320931,879.1666666666666,6.688606824651275
adams_marchman_2018,260,474,20,13604,male,30,4,0.3291549028613295,0.3128918201027124,1325,7.070053336907543
adams_marchman_2018,260,475,20,13604,male,29,12,0.4030891896069766,0.3858422716633543,1293.75,6.962480105865622
adams_marchman_2018,261,476,16,13628,male,29,15,0.5753302031468805,0.47406825189297414,1006.6666666666667,6.807359058603626
adams_marchman_2018,261,477,16,13628,male,26,13,0.6752577520164366,0.5726617677670414,744.2307692307693,6.554220956193818
adams_marchman_2018,261,478,20,13628,male,26,12,0.7011795015723017,0.6653019442405536,577.0833333333334,6.340559522106045
adams_marchman_2018,261,479,20,13628,male,30,13,0.651732159412847,0.6364648287864535,667.3076923076923,6.466440216838953
adams_marchman_2018,262,480,15,13648,female,21,10,0.6790006380800063,0.6228579988485118,907.5,6.793887003924226
adams_marchman_2018,262,481,15,13648,female,28,12,0.6998676849129832,0.6612057970873247,1262.5,7.09658060072744
adams_marchman_2018,262,482,17,13648,female,26,14,0.7679701009349177,0.7903478364012771,796.4285714285714,6.648908852322142
adams_marchman_2018,262,483,18,13648,female,27,10,0.6729109282464796,0.6816652474209887,807.5,6.590651037764129
adams_marchman_2018,263,484,16,911343,male,25,8,0.5778042686953777,0.5554255044914983,1337.5,7.077194406012905
adams_marchman_2018,263,485,17,911343,male,20,11,0.6003837865844197,0.5530343444132645,1045.4545454545455,6.921433836964995
adams_marchman_2018,263,486,18,911343,male,24,6,0.6204201813142529,0.6160714175363003,983.3333333333334,6.8808313050612675
adams_marchman_2018,263,487,19,911343,male,21,12,0.5196695639865002,0.48201507299752155,954.1666666666666,6.771757989394852
adams_marchman_2018,264,488,16,911401,male,9,4,0.6778906353364558,0.6521236840385777,781.25,6.630287593891287
adams_marchman_2018,264,489,16,911401,male,17,5,0.43957584843904196,0.429882251430018,1370,7.206769483658146
adams_marchman_2018,264,490,18,911401,male,30,10,0.6635406053615474,0.6756655138410175,1305,7.1076985306863705
adams_marchman_2018,264,491,19,911401,male,23,9,0.6297522700576524,0.6574562376448987,841.6666666666666,6.678327393026925
adams_marchman_2018,265,492,16,911429,male,30,15,0.6587441824702432,0.6328586380817272,910,6.70323781017471
adams_marchman_2018,265,493,16,911429,male,29,9,0.6224727659607489,0.6036458143248677,966.6666666666666,6.757682714721932
adams_marchman_2018,265,494,18,911429,male,32,11,0.7290496750252078,0.7634614476938555,1011.3636363636364,6.850682006617553
adams_marchman_2018,265,495,19,911429,male,31,12,0.6833977181597566,0.6863814910493433,920.8333333333334,6.694378923956431
fmw_2013,310,540,18,20001,female,28,11,0.49824799300095995,0.618059710648902,1750,7.363883058721416
fmw_2013,310,541,18,20001,female,25,11,0.4962951619646781,0.5571045150667481,1020.4545454545455,6.854825414187569
fmw_2013,310,542,24,20001,female,33,16,0.5884387271520458,0.6255476259038106,1637.5,7.279781270613033
fmw_2013,311,543,18,20002,female,12,7,0.5810794542008756,0.6581093886078675,807.1428571428571,6.678409453960934
fmw_2013,311,544,19,20002,female,9,4,0.35707440100882726,0.382885988120388,1606.25,7.0941901866519155
fmw_2013,312,545,19,20003,female,26,11,0.4675672591022936,0.4821013433129513,1454.5454545454545,7.156535397856958
fmw_2013,312,546,19,20003,female,29,10,0.4450666937989248,0.4616211920577223,1322.5,7.099474301523983
fmw_2013,312,547,25,20003,female,31,18,0.5837190479415229,0.6010031739649937,895.8333333333334,6.729080526872421
fmw_2013,313,548,18,20004,male,25,8,0.5707645964479027,0.5106786528988652,1012.5,6.7703381109899325
fmw_2013,313,549,18,20004,male,27,10,0.4297234136853115,0.479465007574915,1327.5,7.054092358928172
fmw_2013,313,550,23,20004,male,22,7,0.6117574673569595,0.5949352222381145,900,6.737205058364801
fmw_2013,314,551,18,20007,female,17,2,0.4547341514230907,0.45904653264202,862.5,6.676737549183858
fmw_2013,314,552,19,20007,female,12,1,0.7026406429391504,0.633943530304259,NA,NA
fmw_2013,314,553,24,20007,female,8,4,0.6125287158458187,0.6626603167349261,1125,6.938740127371873
fmw_2013,315,554,18,20027,male,28,9,0.6811885125584743,0.7169305506838772,1275,7.075783170435219
fmw_2013,315,555,18,20027,male,27,11,0.5891600084664164,0.6050202933389945,779.5454545454545,6.611005745669588
fmw_2013,315,556,24,20027,male,35,13,0.8337304879158636,0.8793158098532337,957.6923076923077,6.816048313546801
fmw_2013,316,557,19,20034,female,11,5,0.5530557570649669,0.5863257131067634,1100,6.993051142445925
fmw_2013,316,558,19,20034,female,26,7,0.5389544016891155,0.5663001446347747,1150,6.96441842843779
fmw_2013,316,559,23,20034,female,31,15,0.76242580224291,0.7462967662448678,1013.3333333333334,6.820782963414079
fmw_2013,317,560,18,20037,female,27,12,0.6590307913920194,0.5792284740074243,987.5,6.693823800672799
fmw_2013,317,561,18,20037,female,30,11,0.6482594290882453,0.5771521658301777,802.2727272727273,6.610723145752177
fmw_2013,317,562,24,20037,female,28,4,0.6309465957040057,0.5558113420668288,943.75,6.76636400632748
fmw_2013,318,563,18,20038,male,30,5,0.5719641609801535,0.5604720405033028,725,6.508152320535309
fmw_2013,318,564,18,20038,male,30,6,0.6167515929719964,0.5616402297849394,1437.5,6.997629259192872
fmw_2013,318,565,24,20038,male,31,9,0.5641304550190452,0.5321943921090656,1358.3333333333333,7.07873308899992
fmw_2013,319,566,17,20041,female,29,13,0.6987735519788008,0.6966270740753104,1236.5384615384614,7.089700982378521
fmw_2013,319,567,17,20041,female,31,14,0.6289095276926523,0.587159494729544,957.1428571428571,6.799545803338235
fmw_2013,319,568,25,20041,female,39,14,0.728933316657564,0.7147083441408457,826.7857142857143,6.694155944773004
fmw_2013,320,569,18,20047,female,2,0,NA,NA,NA,NA
fmw_2013,320,570,18,20047,female,25,10,0.5768228344491301,0.5424596006287419,1200,7.0009177463140615
fmw_2013,320,571,24,20047,female,35,17,0.7126802310042817,0.753152091844681,902.9411764705883,6.7419061017196995
fmw_2013,321,572,17,20048,female,25,12,0.46226585532457404,0.41793718785163814,1247.9166666666667,7.051065084454398
fmw_2013,321,573,18,20048,female,27,10,0.54235422081140094,0.5026278195272137,1350,7.100835659670405
fmw_2013,321,574,25,20048,female,29,14,0.6274874805665971,0.6532654303836566,1014.2857142857143,6.831376093827646
fmw_2013,322,575,21,20050,female,30,15,0.8346690619504268,0.8730173071546855,716.6666666666666,6.548081258283086
fmw_2013,322,576,21,20050,female,29,12,0.7880774526742709,0.7668110979144046,806.25,6.539032103817253
fmw_2013,323,577,19,20053,female,29,12,0.606002650133741,0.6327140645128098,1212.5,7.001795613632304
fmw_2013,323,578,20,20053,female,31,18,0.6421566136062048,0.5851147459727912,1048.611111111111,6.807867662803752
fmw_2013,323,579,23,20053,female,36,13,0.7092055082074831,0.6455953131310319,1019.2307692307693,6.8727747492811355
fmw_2013,324,580,20,20054,male,29,10,0.6013642045565258,0.6081316263029541,1287.5,7.091679587380478
fmw_2013,324,581,20,20054,male,30,13,0.5361105857055894,0.4913632345853504,1271.1538461538462,6.995955334375861
fmw_2013,325,582,18,20056,female,22,11,0.7065689509372177,0.6328074483193801,925,6.669773871873227
fmw_2013,325,583,18,20056,female,24,11,0.6151305468963909,0.5845657105835707,797.7272727272727,6.558773028047281
fmw_2013,325,584,24,20056,female,30,11,0.6591078460667676,0.6422866252703802,745.4545454545455,6.520726370365206
fmw_2013,326,585,18,20057,female,25,7,0.5490848591088343,0.5167497680520373,1396.4285714285713,7.14755750433509
fmw_2013,326,586,18,20057,female,24,9,0.6778196246918679,0.6828786096773589,791.6666666666666,6.633269129637739
fmw_2013,326,587,25,20057,female,31,11,0.51547658728169,0.5570169708060115,1231.8181818181818,7.009676184677929
fmw_2013,327,588,21,20069,male,32,15,0.7089081272800856,0.7876943317126212,1120,6.936166903691049
fmw_2013,327,589,21,20069,male,30,12,0.7344256003475128,0.6275999418964144,739.5833333333334,6.587327566203692
fmw_2013,328,590,17,20071,male,18,4,0.4869914050241919,0.4899910036686003,1756.25,7.176516816667599
fmw_2013,328,591,18,20071,male,31,6,0.4637538194649606,0.46152482538169626,1633.3333333333333,7.2296088342457825
fmw_2013,328,592,25,20071,male,36,16,0.6131671905890655,0.5718686462766728,1064.0625,6.884873584025973
fmw_2013,329,593,18,20073,female,31,7,0.5656398796846632,0.5766136316591836,1228.5714285714287,6.912986604405855
fmw_2013,329,594,18,20073,female,30,14,0.7740825964385701,0.5805613815706995,846.4285714285714,6.674272959724036
fmw_2013,329,595,23,20073,female,34,20,0.820027419322078,0.7898110804261741,812.5,6.6314236533583655
fmw_2013,330,596,20,20078,male,30,12,0.6533231183088543,0.5548909503990994,908.3333333333334,6.7543451154523195
fmw_2013,330,597,21,20078,male,25,13,0.6819708592973649,0.6501619104435411,653.8461538461538,6.473483088971756
fmw_2013,331,598,19,20084,male,27,9,0.5868256612032006,0.5792066015030447,1194.4444444444443,6.9596139526652445
fmw_2013,331,599,20,20084,male,18,10,0.7042713298413367,0.6637806646812178,932.5,6.812416427728179
fmw_2013,332,600,19,20086,male,26,17,0.7277965095242982,0.7253687101526215,980.8823529411765,6.7575465731057145
fmw_2013,332,601,19,20086,male,26,10,0.5833818286227681,0.5687247990817808,690,6.4704573230369276
fmw_2013,332,602,25,20086,male,31,17,0.6779632561945916,0.6392287058638131,1064.7058823529412,6.8167876329068475
fmw_2013,333,603,21,20091,male,22,8,0.71922269630958,0.7640601298853616,1421.875,7.126673260289552
fmw_2013,333,604,21,20091,male,2,3,NA,NA,1266.6666666666667,7.077471685443819
fmw_2013,334,605,18,20100,male,20,6,0.5535757676141986,0.5420940304083154,1500,7.18900101329547
fmw_2013,334,606,18,20100,male,22,9,0.5935729817899981,0.5367096897784197,1133.3333333333333,6.917023679513162
fmw_2013,334,607,25,20100,male,16,7,0.6461090592023414,0.6380046988116533,764.2857142857143,6.560369393477544
fmw_2013,335,608,18,20108,female,31,10,0.7768769963934659,0.6958599139107933,875,6.731953790621848
fmw_2013,335,609,18,20108,female,30,12,0.6746535136789041,0.7007899349654442,762.5,6.498608276259627
fmw_2013,335,610,24,20108,female,37,20,0.7615587193743703,0.7066949536861078,760,6.564315635738503
fmw_2013,336,611,18,20112,female,30,11,0.6723167251975417,0.7166151537385731,1631.8181818181818,7.286889890270903
fmw_2013,336,612,18,20112,female,31,17,0.6074863863438988,0.6462299559776179,1427.9411764705883,7.148762978103235
fmw_2013,336,613,26,20112,female,31,14,0.724205279178367,0.7676351529458757,1055.357142857143,6.918085429560683
fmw_2013,337,614,18,20113,female,22,7,0.6204048403094123,0.6181871891437026,1671.4285714285716,7.278576083440702
fmw_2013,337,615,18,20113,female,26,7,0.6536183496632421,0.6404947751204719,857.1428571428571,6.720402276138759
fmw_2013,337,616,24,20113,female,27,8,0.6606229708847808,0.6844219632385145,925,6.730673916380621
fmw_2013,338,617,18,20114,male,26,10,0.6233735739111493,0.6635332399774114,1487.5,7.263153422265802
fmw_2013,338,618,18,20114,male,24,10,0.6117316966159915,0.5659605014084697,1040,6.870011187972965
fmw_2013,338,619,24,20114,male,33,12,0.7246724523929094,0.64875248083003,895.8333333333334,6.736623552112417
fmw_2013,339,620,17,20115,male,4,1,0.49028326745718054,0.6693526094648385,NA,NA
fmw_2013,339,621,18,20115,male,13,6,0.474559271574197,0.5636545512514202,2125,7.587799678219439
fmw_2013,340,622,18,20117,male,21,6,0.38693808489304815,0.409739761873327,2429.1666666666665,7.6787668627888825
fmw_2013,340,623,18,20117,male,18,5,0.5723839950573928,0.6043661038239689,1835,7.451075641555561
fmw_2013,340,624,24,20117,male,23,10,0.5581082758944673,0.6794566397741642,1282.5,7.090130518584059
fmw_2013,341,625,18,20119,female,17,8,0.434946609336425,0.5125329345398417,1503.125,7.26960980251394
fmw_2013,342,626,17,20120,male,22,4,0.35375494071146246,0.3562058041932402,3356.25,8.115025342970089
fmw_2013,342,627,17,20120,male,18,4,0.4907324098222291,0.4995454452979372,1900,7.522042445851959
fmw_2013,342,628,23,20120,male,13,5,0.4558969155844156,0.48212268219997906,1645,7.3766820998663505
fmw_2013,343,629,17,20121,male,15,4,0.6877453396192184,0.5235643224954869,1156.25,7.036164602061827
fmw_2013,343,630,18,20121,male,1,2,NA,NA,525,6.220819358421471
fmw_2013,343,631,24,20121,male,34,13,0.5833648691640071,0.6339081894758932,1184.6153846153845,7.0423412275689135
fmw_2013,344,632,18,20122,male,31,16,0.6445245984549423,0.6673793330477995,1131.25,6.929887460886313
fmw_2013,344,633,19,20122,male,8,4,0.5013380786285961,0.4751197510086942,937.5,6.703771159818995
fmw_2013,344,634,24,20122,male,34,16,0.838453430669053,0.8432451553661159,820.3125,6.656834854227682
fmw_2013,345,635,17,20123,female,31,11,0.6932499890242427,0.7061057782252579,1184.090909090909,7.012426213467629
fmw_2013,345,636,18,20123,female,28,14,0.7045779422691736,0.7670011538632743,1198.2142857142858,6.929937060520365
fmw_2013,345,637,24,20123,female,37,17,0.6905401989384726,0.7317483746242496,1164.7058823529412,6.9258251420356025
fmw_2013,346,638,18,20124,female,28,14,0.521815987325889,0.6284217871124044,1255.357142857143,7.067212002054784
fmw_2013,346,639,19,20124,female,16,5,0.6958978727045562,0.6514195334505186,1090,6.879976415208275
fmw_2013,346,640,24,20124,female,28,13,0.6657756059575688,0.6955793194967271,1340.3846153846155,7.173305107539424
fmw_2013,347,641,18,20125,male,23,5,0.46162631727518033,0.4288405224761446,1795,7.294251995869338
fmw_2013,347,642,18,20125,male,20,11,0.4033313415654087,0.5396846935871337,1827.2727272727273,7.403480545741495
fmw_2013,347,643,24,20125,male,21,8,0.6132881689454863,0.5575605880854743,1571.875,7.1369438012720865
fmw_2013,348,644,18,20127,female,28,12,0.669998454936471,0.5659691383984419,1272.9166666666665,6.9593451062477945
fmw_2013,348,645,19,20127,female,27,12,0.7022276708449399,0.5961411506150363,893.75,6.782726880730849
fmw_2013,348,646,24,20127,female,36,12,0.7263567220673839,0.681520627472457,1033.3333333333333,6.866912468464434
fmw_2013,349,647,18,20128,male,30,15,0.5520992875755161,0.535173526398332,1221.6666666666667,6.963018540639202
fmw_2013,349,648,18,20128,male,28,14,0.6566448776391378,0.5528183014889022,896.4285714285714,6.777019459425992
fmw_2013,349,649,24,20128,male,29,14,0.6772035021892384,0.6447584597774866,1021.4285714285713,6.765288101715056
fmw_2013,350,650,18,20129,female,30,10,0.50059520240404,0.5061405186275274,1655,7.350084413188372
fmw_2013,350,651,19,20129,female,26,9,0.44331791293581607,0.466971841234475,1269.4444444444443,7.048880356634168
fmw_2013,350,652,24,20129,female,32,8,0.6269903867398914,0.5294337708354242,1140.625,6.928477596606738
fmw_2013,351,653,18,20132,male,20,4,0.7233878381639891,0.7327177695804046,1037.5,6.926567927677494
fmw_2013,351,654,18,20132,male,15,5,0.48190711040060275,0.4640955769145403,1235,6.993035432472904
fmw_2013,351,655,23,20132,male,19,6,0.6474661145253798,0.6083688606353814,937.5,6.695678621591869
fmw_2013,352,656,19,20135,male,25,8,0.5493606471664049,0.5329689651734499,1212.5,7.0303294143005814
fmw_2013,352,657,19,20135,male,24,10,0.512359575877681,0.531457790929058,1502.5,7.053834030966472
fmw_2013,353,658,19,20136,male,27,15,0.6541724166875759,0.7262363146403157,1003.3333333333333,6.731988757179644
fmw_2013,353,659,19,20136,male,28,5,0.38052008588023867,0.32633895737860236,1265,6.922345098540767
fmw_2013,354,660,19,20137,female,26,13,0.6485437553705274,0.6782891744679659,1338.4615384615386,7.0425292560770405
fmw_2013,354,661,20,20137,female,31,16,0.5693112628783524,0.4623261260252443,1173.4375,6.959489809532205
fmw_2013,355,662,17,20140,male,29,6,0.4463773661542424,0.4914854159339077,1362.5,7.089519887620627
fmw_2013,356,663,17,20144,male,17,7,0.5435005289804313,0.5774043605139826,1364.2857142857142,6.961345524087733
fmw_2013,356,664,17,20144,male,30,8,0.5782994120562976,0.5328511703335945,1871.875,7.3530987151102885
fmw_2013,357,665,17,20147,female,10,5,0.2658768794078896,0.40597397986650213,1755,7.437751659553083
fmw_2013,357,666,17,20147,female,12,4,0.5822029861939557,0.5941816977163575,1225,6.945240933881633
fmw_2013,358,667,17,20148,female,32,17,0.6520538426854331,0.5752538531888562,1044.1176470588234,6.864349791674895
fmw_2013,358,668,17,20148,female,31,12,0.6139080817702729,0.5339628365720812,1177.0833333333333,6.972706701575213
fmw_2013,359,669,18,20149,male,31,13,0.6307239296946584,0.5636353488272022,903.8461538461538,6.75629172758751
fmw_2013,359,670,18,20149,male,31,6,0.6155142414057548,0.6178588701005463,2279.1666666666665,7.567750623114839
fmw_2013,360,671,24,4856,male,37,11,0.8480005890079231,0.7883015612129812,706.8181818181819,6.513228498375171
fmw_2013,361,672,18,4943,male,32,21,0.6610773682596508,0.7450949400723477,954.7619047619048,6.734520654441235
fmw_2013,361,673,24,4943,male,40,12,0.7750311861975488,0.7995451747738919,816.6666666666666,6.64159325923883
fmw_2013,362,674,18,6117,female,26,12,0.6876018559931873,0.6943909775042806,872.9166666666666,6.687717078796978
fmw_2013,362,675,24,6117,female,37,13,0.7725251832675007,0.721641062756283,707.6923076923077,6.516406102137888
fmw_2013,363,676,18,6135,male,29,5,0.5630243850119401,0.49547561135448387,1240,7.077318339905106
fmw_2013,363,677,24,6135,male,37,19,0.7480402875338988,0.7325575764094603,982.8947368421052,6.7926979859436365
fmw_2013,364,678,18,6152,male,31,15,0.6040795204856456,0.6634906206003585,1368.3333333333333,7.14854736373288
fmw_2013,364,679,24,6152,male,30,7,0.6955232268272452,0.6591804597421373,921.4285714285714,6.7947590434730385
fmw_2013,365,680,18,6229,male,31,12,0.7389693435471794,0.7446432281940624,810.4166666666666,6.660438063242711
fmw_2013,365,681,24,6229,male,40,15,0.7717582329202757,0.7739006206575472,976.6666666666667,6.731540152417789
fmw_2013,366,682,18,6296,female,28,13,0.6590546909161528,0.6390953312324987,778.8461538461538,6.58775654961376
fmw_2013,366,683,24,6296,female,34,19,0.6328196076413958,0.6976309488204144,919.7368421052631,6.739065513217189
fmw_2013,367,684,19,6316,male,28,8,0.6839199354212093,0.607136913209636,909.375,6.792922533620059
fmw_2013,367,685,24,6316,male,36,13,0.6750214735728678,0.663934955354746,663.4615384615385,6.441902729931537
fmw_2013,368,686,18,6342,male,31,12,0.748935659383935,0.7483044933722302,1022.9166666666667,6.838906027259538
fmw_2013,368,687,24,6342,male,34,10,0.810479899847422,0.7998604942474062,817.5,6.6286215154067785
fmw_2013,369,688,18,6356,female,25,13,0.5702015255761251,0.6027340500712469,1363.4615384615386,7.127905653284276
fmw_2013,369,689,24,6356,female,21,8,0.5113125247696622,0.623883464142726,1312.5,7.156823913768991
fmw_2013,370,690,18,6357,male,16,9,0.5912425435668595,0.6284516878219952,1197.2222222222222,6.922176696134411
fmw_2013,371,691,18,6358,male,31,14,0.7218605112882033,0.7095880472661551,862.5,6.731164529941117
fmw_2013,371,692,24,6358,male,33,11,0.7664563024988493,0.7941496823710044,995.4545454545455,6.740628855589229
fmw_2013,372,693,18,6367,female,24,11,0.7228966635079654,0.80252159360942,1043.1818181818182,6.922410911663425
fmw_2013,372,694,24,6367,female,37,14,0.6801748696090129,0.6791661573943529,941.0714285714286,6.75856925914285
fmw_2013,373,695,18,6368,female,32,11,0.6604942046991419,0.5830902052179391,897.7272727272727,6.718871503492997
fmw_2013,373,696,24,6368,female,16,10,0.7489567546078028,0.7437130838862384,840,6.690018979082401
fmw_2013,374,697,18,6377,female,29,16,0.6830588201182886,0.7159697107611317,903.125,6.7554233683319325
fmw_2013,374,698,24,6377,female,28,14,0.7294162320921301,0.7027776145222507,766.0714285714286,6.595733468161879
fmw_2013,375,699,18,6378,female,17,7,0.7420439952657637,0.7524802792134975,660.7142857142857,6.487738768283548
fmw_2013,376,700,18,6403,male,25,9,0.7143347966203125,0.7053446057870146,711.1111111111111,6.524697748721758
fmw_2013,376,701,24,6403,male,37,12,0.8422847237185472,0.8652819971754596,1039.5833333333333,6.807314927875023
fmw_2013,377,702,18,6408,female,16,7,0.6958215258673859,0.7235439209337454,689.2857142857143,6.49371762775549
fmw_2013,377,703,24,6408,female,35,13,0.2724990262172733,0.29008552091602635,1630.7692307692307,7.112796823524535
fmw_2013,378,704,24,6414,male,24,7,0.894486688517049,0.8402678717467477,810.7142857142857,6.604435359781368
fmw_2013,378,705,NA,6414,male,31,11,0.6443548792112525,0.551433315235831,1025,6.765622754846568
fmw_2013,379,706,18,6429,male,32,12,0.6831134592636494,0.712275972418138,1004.1666666666666,6.826606345534817
fmw_2013,379,707,24,6429,male,39,12,0.8125349291773558,0.8077053741841869,789.5833333333334,6.633737494619915
fmw_2013,380,708,18,6433,male,24,7,0.49693295790555714,0.519112417469024,1185.7142857142858,6.994694009987252
fmw_2013,381,709,18,6440,male,26,11,0.6832390601834842,0.7287239862759205,975,6.834973113135632
fmw_2013,381,710,24,6440,male,35,10,0.7228683590671218,0.6934263058943716,820,6.676144104972059
fmw_2013,382,711,18,6446,male,30,15,0.5994935691068675,0.5512375963506176,1113.3333333333333,6.97529934054371
fmw_2013,382,712,24,6446,male,37,12,0.8374022253376442,0.7473038724955432,793.75,6.619237557434963
fmw_2013,383,713,25,6516,male,37,13,0.7439769654527666,0.7447672840102553,905.7692307692307,6.773529546544868
fmw_2013,384,714,18,6517,female,30,13,0.7112312582931257,0.6358036053397481,928.8461538461538,6.801572704713959
fmw_2013,385,715,18,6529,female,13,5,0.7029570906188549,0.6783337026018383,905,6.790450037060186
fmw_2013,386,716,18,6546,female,28,14,0.7537403952403229,0.7735358482238367,842.8571428571429,6.71650985302929
fmw_2013,387,717,18,6592,female,29,7,0.6936939346210232,0.6944765612938323,1028.5714285714287,6.810394722775971
fmw_2013,388,718,18,6611,male,31,13,0.582135692445558,0.6204527676779852,1490.3846153846155,7.232417085045588
fmw_2013,389,719,18,6613,female,21,8,0.677755426885155,0.7219323125635365,746.875,6.595010684774498
