dataset_name,lab_subject_id,sex,lwl_age,cdi_age,cdi_age_diff,n_trials,n_trials_rt,lwl_short_acc,lwl_long_acc,lwl_rt,lwl_log_rt,cdi_form,cdi_n_items,cdi_n_produces,peekbank_admin_id
adams_marchman_2018,11003,female,17,21,4,30,15,0.626282086711251,0.6525229862665957,840,6.648177989544021,WS,680,236,226
adams_marchman_2018,11003,female,17,21,4,16,5,0.5986796088875245,0.673679773631383,760,6.595743663301313,WS,680,236,227
adams_marchman_2018,11003,female,19,21,2,28,10,0.23511132485815273,0.22367498620772097,2142.5,7.498026345221543,WS,680,236,228
adams_marchman_2018,11003,female,19,21,2,25,13,0.7137785842783612,0.7275380212504835,1059.6153846153843,6.789739531580227,WS,680,236,229
adams_marchman_2018,11009,female,16,22,6,30,11,0.6901728943074924,0.6187216766018669,940.9090909090908,6.6957530219784145,WS,680,359,230
adams_marchman_2018,11009,female,16,22,6,30,16,0.6110374039055771,0.5844830891331367,901.5625,6.754032043366853,WS,680,359,231
adams_marchman_2018,11009,female,18,22,4,31,16,0.6966532632754733,0.6803638057913145,698.4375,6.44666342784753,WS,680,359,232
adams_marchman_2018,11009,female,18,22,4,31,11,0.6416737734051456,0.6183954884109646,931.8181818181818,6.6277254351372745,WS,680,359,233
adams_marchman_2018,11011,male,15,21,6,31,16,0.6100361948986657,0.519646946169484,1068.75,6.885715568647989,WS,680,94,234
adams_marchman_2018,11011,male,16,21,5,32,14,0.5622197859613637,0.5652374344873545,1421.428571428571,7.1844025533366676,WS,680,94,235
adams_marchman_2018,11011,male,18,21,3,28,11,0.5063255828264457,0.5032487537657304,1547.7272727272727,7.1965598357287925,WS,680,94,236
adams_marchman_2018,11011,male,18,21,3,28,15,0.5298403909524483,0.5684626942250163,1330,7.086625726649944,WS,680,94,237
adams_marchman_2018,11014,male,15,21,6,31,14,0.6761698704178234,0.652131101808419,1021.4285714285714,6.82021617583125,WS,680,236,238
adams_marchman_2018,11014,male,15,21,6,31,17,0.6745296992775907,0.7616074566529042,1208.8235294117646,6.9582968505936424,WS,680,236,239
adams_marchman_2018,11014,male,17,21,4,32,15,0.7119767399427881,0.7570814133565869,1063.3333333333333,6.885987794469059,WS,680,236,240
adams_marchman_2018,11014,male,17,21,4,32,15,0.7113426158246973,0.7279479083838423,1178.3333333333333,6.992203888076031,WS,680,236,241
adams_marchman_2018,11035,male,15,23,8,32,8,0.667617853889727,0.6259357594754233,1337.5,7.0144803672491935,WS,680,333,242
adams_marchman_2018,11035,male,16,23,7,32,13,0.6275993231135631,0.635375819680412,1259.6153846153843,7.096138666803336,WS,680,333,243
adams_marchman_2018,11035,male,19,23,4,32,8,0.6885515373125705,0.6476895139350319,1612.5,7.251098894914405,WS,680,333,244
adams_marchman_2018,11035,male,19,23,4,32,13,0.7717706437491302,0.7008042936247555,873.0769230769231,6.729380244731615,WS,680,333,245
adams_marchman_2018,11036,male,16,21,5,26,12,0.5653612583133326,0.5711655151404722,1677.0833333333333,7.346471571435251,WS,680,447,246
adams_marchman_2018,11036,male,16,21,5,28,12,0.6515213941799503,0.6779299569951774,1737.5,7.304019792384855,WS,680,447,247
adams_marchman_2018,11036,male,18,21,3,24,8,0.7242630234713147,0.6608152913135362,996.875,6.887318157838874,WS,680,447,248
adams_marchman_2018,11036,male,19,21,2,26,7,0.681481379563858,0.7183653269610769,1175,6.9761309931223865,WS,680,447,249
adams_marchman_2018,11037,male,15,21,6,30,12,0.654274542200295,0.7078087516407878,1381.25,7.089596855060824,WS,680,381,250
adams_marchman_2018,11037,male,15,21,6,31,12,0.7149112056224888,0.7862430276251169,1129.1666666666667,6.987970834899737,WS,680,381,251
adams_marchman_2018,11037,male,18,21,3,32,17,0.7436605971771522,0.6899672929691854,995.5882352941176,6.79387879801598,WS,680,381,252
adams_marchman_2018,11037,male,18,21,3,31,12,0.7672073372488812,0.749942794584863,893.75,6.769480380397988,WS,680,381,253
adams_marchman_2018,11070,female,15,22,7,32,18,0.6448690598214716,0.590442665068297,919.4444444444443,6.771679886711694,WS,680,264,254
adams_marchman_2018,11070,female,16,22,6,31,12,0.5923734420288592,0.5778132893713738,712.5,6.545746451760678,WS,680,264,255
adams_marchman_2018,11070,female,19,22,3,25,15,0.6960177017099777,0.6334687848128284,625,6.42779505186635,WS,680,264,256
adams_marchman_2018,11070,female,19,22,3,28,12,0.7146295464554593,0.6201351225438524,606.25,6.395025208148163,WS,680,264,257
adams_marchman_2018,11136,male,17,24,7,31,13,0.7534697601252107,0.7197645848622788,888.4615384615385,6.690542110448802,WS,680,165,258
adams_marchman_2018,11136,male,17,24,7,32,14,0.6871437544064278,0.5469431605973583,926.7857142857144,6.681809666939055,WS,680,165,259
adams_marchman_2018,11136,male,19,24,5,31,17,0.7093319711221301,0.625980286667453,883.8235294117648,6.708199474232317,WS,680,165,260
adams_marchman_2018,11136,male,19,24,5,24,12,0.6394262389338857,0.5739142230287592,850,6.640465238500926,WS,680,165,261
adams_marchman_2018,11141,female,16,24,8,31,15,0.7681873983333656,0.71917678491632675,918.3333333333334,6.785593721085068,WS,680,259,262
adams_marchman_2018,11141,female,16,24,8,29,8,0.7530130736107797,0.7297004866348743,1037.5,6.8980962077421974,WS,680,259,263
adams_marchman_2018,11141,female,18,24,6,31,19,0.6612308379705623,0.6557272513956423,942.1052631578948,6.7872538022816835,WS,680,259,264
adams_marchman_2018,11141,female,18,24,6,30,15,0.7577783434779704,0.6953500031170766,1018.3333333333331,6.8077072605671525,WS,680,259,265
adams_marchman_2018,11200,female,15,22,7,27,14,0.5835668102053909,0.5535899775514032,1383.928571428571,7.123323405294643,WS,680,286,266
adams_marchman_2018,11200,female,16,22,6,29,18,0.6900380978953625,0.628217744313256,820.8333333333334,6.683872178330873,WS,680,286,267
adams_marchman_2018,11200,female,17,22,5,27,13,0.6233419293773421,0.5549998130153768,1388.4615384615386,7.097559584491572,WS,680,286,268
adams_marchman_2018,11200,female,18,22,4,23,14,0.44708379457088776,0.4509735151632777,1592.857142857143,7.230805768150801,WS,680,286,269
adams_marchman_2018,11327,male,15,21,6,27,12,0.6169300278420096,0.5882665268464431,1170.8333333333333,6.942504778290469,WS,680,95,270
adams_marchman_2018,11327,male,16,21,5,26,10,0.4837897042167139,0.47426954594065496,2200,7.595635544844234,WS,680,95,271
adams_marchman_2018,11327,male,18,21,3,28,11,0.5112938035554082,0.5612232433916904,1475,7.196007091275982,WS,680,95,272
adams_marchman_2018,11327,male,18,21,3,30,14,0.5007005842566123,0.5276239515978491,1482.142857142857,7.231891510779798,WS,680,95,273
adams_marchman_2018,11417,male,16,21,5,30,10,0.5838706686524523,0.6192266069195129,1585,7.166721612156238,WS,680,59,277
adams_marchman_2018,11417,male,16,21,5,30,14,0.5630730864835796,0.6120655642988694,1596.428571428571,7.230912492192147,WS,680,59,278
adams_marchman_2018,11417,male,18,21,3,29,13,0.7415911187436315,0.6661995713347669,678.8461538461538,6.496765419609224,WS,680,59,279
adams_marchman_2018,11417,male,18,21,3,31,17,0.7092861695670232,0.6975381377432287,829.4117647058823,6.691552509288547,WS,680,59,280
adams_marchman_2018,11611,male,16,22,6,32,17,0.5844714575167569,0.5656326806025997,1282.3529411764707,7.0706793557187915,WS,680,44,281
adams_marchman_2018,11611,male,16,22,6,30,13,0.5941911790564548,0.460788266430486,1057.6923076923076,6.902708438750929,WS,680,44,282
adams_marchman_2018,11611,male,18,22,4,30,9,0.5205989924325717,0.5395221443748948,1052.7777777777778,6.784537847141866,WS,680,44,283
adams_marchman_2018,11611,male,19,22,3,30,13,0.6986139454236706,0.6333388278688921,1078.8461538461538,6.915377587021878,WS,680,44,284
adams_marchman_2018,11655,male,16,21,5,30,14,0.6709815267769973,0.5837294133378084,921.4285714285712,6.65457376828284,WS,680,249,285
adams_marchman_2018,11655,male,16,21,5,30,15,0.7055433446788342,0.6850178761075474,898.3333333333334,6.758216379620327,WS,680,249,286
adams_marchman_2018,11655,male,18,21,3,30,11,0.6920209119469654,0.5935641032074223,904.5454545454544,6.769208552090162,WS,680,249,287
adams_marchman_2018,11655,male,19,21,2,26,14,0.6938511347846259,0.6635717269707222,935.7142857142856,6.716931059665618,WS,680,249,288
adams_marchman_2018,11743,male,16,22,6,30,13,0.7014678308262515,0.6867721532806672,1011.5384615384615,6.8470133459912415,WS,680,43,289
adams_marchman_2018,11743,male,16,22,6,28,18,0.6949708648868753,0.6575241963572243,1113.888888888889,6.853175473662567,WS,680,43,290
adams_marchman_2018,11743,male,18,22,4,32,16,0.676528988467463,0.6096851714680682,1209.375,6.9812324774511785,WS,680,43,291
adams_marchman_2018,11743,male,18,22,4,28,18,0.6947845359024899,0.6588011084419698,1108.3333333333333,6.854828264404509,WS,680,43,292
adams_marchman_2018,12095,male,16,23,7,30,15,0.5865018517161222,0.5537203564405782,691.6666666666666,6.468914033774845,WS,680,210,297
adams_marchman_2018,12095,male,16,23,7,29,12,0.49005951809200854,0.513264511389802,1435.4166666666667,7.225130756278352,WS,680,210,298
adams_marchman_2018,12095,male,19,23,4,32,11,0.44690793497835857,0.46216764830428464,990.9090909090908,6.728376794903815,WS,680,210,299
adams_marchman_2018,12095,male,19,23,4,31,15,0.59600274362273,0.5553048472587289,1025,6.828457850415803,WS,680,210,300
adams_marchman_2018,12297,female,16,22,6,32,17,0.5840598630105643,0.6772498938823732,1779.4117647058824,7.363952581013743,WS,680,289,301
adams_marchman_2018,12297,female,16,22,6,29,15,0.6563547257945037,0.6764603545598892,1076.6666666666667,6.867004809959755,WS,680,289,302
adams_marchman_2018,12297,female,18,22,4,6,1,0.6433954933954934,0.6017957211129215,NA,NA,WS,680,289,303
adams_marchman_2018,12297,female,18,22,4,28,8,0.7218025437333047,0.747484781766859,934.375,6.7742607454777835,WS,680,289,304
adams_marchman_2018,12316,female,15,23,8,32,16,0.5542001051151073,0.5862677290177982,1401.5625,7.121801124058396,WS,680,414,305
adams_marchman_2018,12316,female,15,23,8,31,19,0.7042806950050278,0.6643414664409093,931.578947368421,6.7916064162731,WS,680,414,306
adams_marchman_2018,12316,female,18,23,5,32,15,0.8241590209088164,0.7284116251154166,696.6666666666666,6.538599743718667,WS,680,414,307
adams_marchman_2018,12316,female,18,23,5,31,12,0.6457384913304858,0.6899346107567744,1066.6666666666667,6.885279786752933,WS,680,414,308
adams_marchman_2018,12390,male,16,23,7,32,11,0.5326960549510483,0.5548972300523525,1752.2727272727273,7.239743200105387,WS,1360,37,309
adams_marchman_2018,12390,male,16,23,7,31,11,0.4606910506656272,0.4876103540396032,1200,7.000117215452429,WS,1360,37,310
adams_marchman_2018,12390,male,18,23,5,32,20,0.6943984735225909,0.6985976987864445,982.5,6.8496020772356285,WS,1360,37,311
adams_marchman_2018,12390,male,18,23,5,32,12,0.6044331459447881,0.5525028741935762,1077.0833333333333,6.945421012361343,WS,1360,37,312
adams_marchman_2018,12398,female,16,21,5,31,9,0.5079933423967924,0.5002828785011587,1577.7777777777778,7.140675320571509,WS,680,317,313
adams_marchman_2018,12398,female,16,21,5,32,13,0.4598866089026841,0.5139984355832726,1953.8461538461536,7.477856547526264,WS,680,317,314
adams_marchman_2018,12398,female,18,21,3,31,14,0.4530946659706928,0.4785558345733355,1414.2857142857142,7.092518432759959,WS,680,317,315
adams_marchman_2018,12398,female,18,21,3,30,15,0.5973302134798467,0.5838242389443403,1271.6666666666667,7.00614348190393,WS,680,317,316
adams_marchman_2018,12409,female,16,21,5,31,16,0.5261761363347539,0.6112507999956602,1600,7.237725416866883,WS,680,386,317
adams_marchman_2018,12409,female,16,21,5,30,15,0.785164257365442,0.7727055923610344,881.6666666666667,6.717926236604478,WS,680,386,318
adams_marchman_2018,12409,female,18,21,3,18,4,0.6306171606751952,0.5153979076006461,837.5,6.688262312089132,WS,680,386,319
adams_marchman_2018,12409,female,18,21,3,29,8,0.7848338198927043,0.7202662369015475,859.375,6.654345677351508,WS,680,386,320
adams_marchman_2018,12417,male,17,22,5,29,8,0.4843825156211047,0.5063832069932332,2087.5,7.394295280050172,WS,680,26,321
adams_marchman_2018,12417,male,17,22,5,26,14,0.5382024141432107,0.5713421513776954,1016.0714285714286,6.786120498507129,WS,680,26,322
adams_marchman_2018,12417,male,19,22,3,27,12,0.6253762623605291,0.5392174838446685,693.75,6.500139695284554,WS,680,26,323
adams_marchman_2018,12417,male,19,22,3,28,8,0.7318591007393517,0.6285881424105713,853.125,6.72498978053875,WS,680,26,324
adams_marchman_2018,12520,female,17,22,5,28,15,0.698759093605445,0.6954011118098329,603.3333333333334,6.376442605266924,WS,680,129,329
adams_marchman_2018,12520,female,17,22,5,29,14,0.5860511957582715,0.6095401957220036,1155.357142857143,6.927087589583991,WS,680,129,330
adams_marchman_2018,12520,female,20,22,2,26,12,0.6419321739307444,0.611215284207282,1339.5833333333337,6.947755262949426,WS,680,129,331
adams_marchman_2018,12520,female,20,22,2,20,15,0.5942786564789111,0.6087725947042946,961.6666666666669,6.646141251915453,WS,680,129,332
adams_marchman_2018,12547,female,15,21,6,14,9,0.5547505923560896,0.5908846542884693,1263.888888888889,6.8480646102819955,WS,680,300,333
adams_marchman_2018,12547,female,15,21,6,8,6,0.6689260249554367,0.6320596529835867,1100,6.953573645536484,WS,680,300,334
adams_marchman_2018,12547,female,18,21,3,23,11,0.6555194907603266,0.6440419933656036,1095.4545454545455,6.940902459253159,WS,680,300,335
adams_marchman_2018,12547,female,18,21,3,31,14,0.6568401777566887,0.60674448959061,783.9285714285714,6.629861174779129,WS,680,300,336
adams_marchman_2018,12608,female,15,21,6,30,0,0.5715890245740992,0.5280209861961177,NA,NA,WS,680,445,337
adams_marchman_2018,12608,female,15,21,6,31,10,0.6233809399101633,0.5782666741747426,1267.5,6.987861405021822,WS,680,445,338
adams_marchman_2018,12608,female,18,21,3,31,17,0.5939992673836451,0.6555798747701641,970.5882352941176,6.670607752758177,WS,680,445,339
adams_marchman_2018,12608,female,18,21,3,28,10,0.6818414106467158,0.6524621362011732,1012.5,6.769904383879322,WS,680,445,340
adams_marchman_2018,12612,female,16,23,7,31,13,0.6007718549626617,0.6024140166880887,1146.1538461538462,6.908463211786506,WS,680,368,341
adams_marchman_2018,12612,female,16,23,7,32,18,0.644855952913917,0.6099752723808399,1048.611111111111,6.9085863264626175,WS,680,368,342
adams_marchman_2018,12612,female,18,23,5,32,13,0.6224038140088515,0.6666212276748765,788.4615384615385,6.596278554949286,WS,680,368,343
adams_marchman_2018,12612,female,19,23,4,32,14,0.68309073065862,0.6305400922439447,616.0714285714286,6.4060822318982025,WS,680,368,344
adams_marchman_2018,12683,female,17,21,4,31,11,0.8102102143930376,0.7842433418205466,827.2727272727273,6.699228861705082,WS,680,435,345
adams_marchman_2018,12683,female,17,21,4,32,13,0.7862595145289485,0.8333391153428904,761.5384615384615,6.5886732573986535,WS,680,435,346
adams_marchman_2018,12683,female,20,21,1,24,11,0.6966202139414306,0.7183776068482913,1106.8181818181818,6.886438102801192,WS,680,435,347
adams_marchman_2018,12683,female,20,21,1,31,13,0.7405030491059545,0.7173869320746573,821.1538461538462,6.653672950796358,WS,680,435,348
adams_marchman_2018,12717,male,16,22,6,31,11,0.6583122719806179,0.6089090711057221,981.8181818181818,6.771472283708238,WS,680,134,349
adams_marchman_2018,12717,male,16,22,6,31,13,0.6483776453003678,0.636792802260278,1205.7692307692307,6.959318834818465,WS,680,134,350
adams_marchman_2018,12717,male,18,22,4,32,16,0.7417775879008319,0.7943445634211329,950,6.759093627728439,WS,680,134,351
adams_marchman_2018,12717,male,18,22,4,32,14,0.6898469126644997,0.7064795371355724,1176.7857142857142,6.931096057537589,WS,680,134,352
adams_marchman_2018,12724,male,17,22,5,15,8,0.5318887476836514,0.5931340124717099,1634.375,7.235393276711327,WS,680,144,353
adams_marchman_2018,12724,male,18,22,4,14,5,0.5050196499595376,0.5439892526519197,1865,7.444460348557527,WS,680,144,354
adams_marchman_2018,12724,male,19,22,3,10,4,0.6714394132737747,0.7477223756747807,1631.25,7.321232588989869,WS,680,144,355
adams_marchman_2018,12724,male,19,22,3,10,4,0.48417963873817527,0.6099352098593827,1143.75,7.014267449078991,WS,680,144,356
adams_marchman_2018,12737,female,16,22,6,30,10,0.7357769467863222,0.664545283683771,827.5,6.642276732333302,WS,680,478,357
adams_marchman_2018,12737,female,16,22,6,31,14,0.7496748433294049,0.6345606506660619,596.4285714285714,6.353870292885564,WS,680,478,358
adams_marchman_2018,12737,female,18,22,4,19,13,0.5770694908743021,0.6020626805187405,759.6153846153846,6.539049058493425,WS,680,478,359
adams_marchman_2018,12737,female,18,22,4,32,12,0.5761926445384266,0.5879554789540058,783.3333333333334,6.596695854656118,WS,680,478,360
adams_marchman_2018,12828,male,16,22,6,17,6,0.4321269891945923,0.4608061329578741,1304.1666666666667,7.0209677544698685,WS,680,204,361
adams_marchman_2018,12828,male,16,22,6,29,11,0.5372652552759735,0.5484121981155153,1586.3636363636365,7.228912516605296,WS,680,204,362
adams_marchman_2018,12828,male,18,22,4,22,8,0.6909217405325135,0.6601437244711486,965.625,6.834952907509979,WS,680,204,363
adams_marchman_2018,12828,male,19,22,3,24,8,0.8298875139778091,0.8163737789829492,878.125,6.732424716591897,WS,680,204,364
adams_marchman_2018,12830,male,16,23,7,26,9,0.6107041604306411,0.5557418343857748,1475,7.095077708597911,WS,680,64,365
adams_marchman_2018,12830,male,17,23,6,27,12,0.5244956603462567,0.5416808732700157,1343.75,7.078201299009283,WS,680,64,366
adams_marchman_2018,12830,male,18,23,5,18,8,0.6034626540331945,0.5526885481700001,1537.5,7.047724582983998,WS,680,64,367
adams_marchman_2018,12830,male,18,23,5,25,12,0.6398696792728172,0.5070242124750134,972.9166666666666,6.76892478785582,WS,680,64,368
adams_marchman_2018,12840,female,17,23,6,22,8,0.6468601836843669,0.5865054315938045,1118.75,6.92817582125485,WS,680,119,369
adams_marchman_2018,12840,female,17,23,6,19,5,0.6767050212316509,0.5762489202422494,1455,7.244265744717051,WS,680,119,370
adams_marchman_2018,12840,female,18,23,5,18,8,0.5975528778913995,0.5406238635678475,1484.375,7.103733065090215,WS,680,119,371
adams_marchman_2018,12840,female,18,23,5,17,8,0.5030878019523038,0.4647295288614785,1087.5,6.882495325890656,WS,680,119,372
adams_marchman_2018,12878,female,16,21,5,32,19,0.695542632673532,0.6634316369237732,823.6842105263158,6.668189366965529,WS,680,429,373
adams_marchman_2018,12878,female,16,21,5,32,8,0.7160139508620651,0.6810592681619676,625,6.415594132780413,WS,680,429,374
adams_marchman_2018,12878,female,18,21,3,32,11,0.7815292857069066,0.6502287258757565,709.0909090909091,6.550549277009379,WS,680,429,375
adams_marchman_2018,12878,female,18,21,3,31,13,0.7401192013296691,0.6713178443853002,721.1538461538462,6.416534061586172,WS,680,429,376
adams_marchman_2018,12959,female,17,23,6,29,18,0.7596600224473263,0.800263176655895,758.3333333333334,6.589009462176826,WS,680,531,377
adams_marchman_2018,12959,female,17,23,6,32,18,0.7840534914081796,0.7419743801243359,605.5555555555555,6.357693153983356,WS,680,531,378
adams_marchman_2018,12959,female,19,23,4,32,15,0.7668542720127626,0.693637659952758,595,6.374855481435884,WS,680,531,379
adams_marchman_2018,12959,female,19,23,4,32,15,0.704467345301622,0.6303266101456996,573.3333333333334,6.317856538812149,WS,680,531,380
adams_marchman_2018,12971,female,15,21,6,32,9,0.788940220283146,0.7310572699651755,1038.888888888889,6.9153518676002035,WS,680,373,381
adams_marchman_2018,12971,female,16,21,5,28,8,0.6661336978681983,0.5928170578037114,1187.5,6.932323012671703,WS,680,373,382
adams_marchman_2018,12971,female,18,21,3,17,4,0.5551449753336545,0.4662953143850166,1025,6.826117067271944,WS,680,373,383
adams_marchman_2018,12971,female,18,21,3,25,15,0.6314068884549474,0.6188905708910065,945,6.791037077937743,WS,680,373,384
adams_marchman_2018,12973,male,13,20,7,31,10,0.5641812926566111,0.5432013324136266,1082.5,6.82279578554868,WS,680,2,385
adams_marchman_2018,12973,male,13,20,7,31,14,0.5942031047221339,0.5594862062468517,880.3571428571429,6.645997904544745,WS,680,2,386
adams_marchman_2018,12973,male,19,20,1,30,10,0.624045576527858,0.6014750774475973,1057.5,6.902305339895587,WS,680,2,387
adams_marchman_2018,13044,female,15,21,6,31,12,0.5359165832515403,0.574419805818147,1566.6666666666667,7.261259971885368,WS,680,302,388
adams_marchman_2018,13044,female,16,21,5,26,11,0.49361740724717984,0.49927294737165934,1568.1818181818182,7.129208565583672,WS,680,302,389
adams_marchman_2018,13044,female,18,21,3,30,15,0.6028364507341029,0.5859944489851363,990,6.762574613975487,WS,680,302,390
adams_marchman_2018,13044,female,18,21,3,30,10,0.6125964248076426,0.5495039971419534,1080,6.930243963438839,WS,680,302,391
adams_marchman_2018,13061,female,16,20,4,32,10,0.5443844684162252,0.5572998771334324,935,6.802601614109834,WS,680,22,392
adams_marchman_2018,13061,female,16,20,4,31,13,0.6567176175010718,0.6184866475500199,934.6153846153846,6.651658320046886,WS,680,22,393
adams_marchman_2018,13061,female,19,20,1,32,15,0.7052522008181626,0.6897240715465283,706.6666666666666,6.520539176801508,WS,680,22,394
adams_marchman_2018,13061,female,19,20,1,32,14,0.7632932856128646,0.642110489603562,675,6.480401847025059,WS,680,22,395
adams_marchman_2018,13069,male,15,22,7,30,4,0.5355833113549638,0.6026802824883287,1687.5,7.392682258786178,WS,680,164,396
adams_marchman_2018,13069,male,16,22,6,28,10,0.5305105161973844,0.5994727799611658,1645,7.318865038738991,WS,680,164,397
adams_marchman_2018,13069,male,18,22,4,29,9,0.6054684651125972,0.6589121035008478,1530.5555555555557,7.260443274138012,WS,680,164,398
adams_marchman_2018,13069,male,19,22,3,26,11,0.5527302637568132,0.585050403197883,1193.1818181818182,6.9419122554260655,WS,680,164,399
adams_marchman_2018,13073,male,15,21,6,30,13,0.5199114962360263,0.5750664734149872,1594.2307692307693,7.270036744022435,WS,680,88,400
adams_marchman_2018,13073,male,16,21,5,31,12,0.5117888157596476,0.4995505637291645,1325,6.9676856231774025,WS,680,88,401
adams_marchman_2018,13073,male,18,21,3,31,16,0.547418615967218,0.5671178093251262,1542.1875,7.16557983116214,WS,680,88,402
adams_marchman_2018,13073,male,18,21,3,30,11,0.5522847558092329,0.5461937516071688,1754.5454545454545,7.382166536878968,WS,680,88,403
adams_marchman_2018,13081,female,16,23,7,23,13,0.6928923428641718,0.6488672750848873,782.6923076923077,6.622344183232709,WS,680,561,408
adams_marchman_2018,13081,female,16,23,7,7,4,0.5412597989212841,0.5903953260975179,937.5,6.635205831465364,WS,680,561,409
adams_marchman_2018,13081,female,19,23,4,24,16,0.7159982587909984,0.6813281787033026,820.3125,6.642886537269226,WS,680,561,410
adams_marchman_2018,13081,female,19,23,4,30,12,0.6824613271424111,0.6360932887447048,870.8333333333334,6.71202531183865,WS,680,561,411
adams_marchman_2018,13094,male,17,22,5,26,9,0.6256947594174599,0.6567278771402886,1669.4444444444443,7.353256229266211,WS,680,90,412
adams_marchman_2018,13094,male,17,22,5,16,6,0.5086609955209689,0.5262467672877472,1466.6666666666667,7.052504633730161,WS,680,90,413
adams_marchman_2018,13094,male,18,22,4,29,7,0.5618532700111575,0.5519383659759586,935.7142857142856,6.818281557524625,WS,680,90,414
adams_marchman_2018,13094,male,19,22,3,27,14,0.6295199389974038,0.5216731299512969,1053.571428571429,6.775208730905584,WS,680,90,415
adams_marchman_2018,13096,male,16,21,5,6,3,0.5894436542741628,0.6115749328946414,883.3333333333334,6.711943036936193,WS,680,19,416
adams_marchman_2018,13096,male,16,21,5,6,0,0.54375,0.31969733429587444,NA,NA,WS,680,19,417
adams_marchman_2018,13096,male,18,21,3,15,2,0.8562832486000589,0.7747396452057306,975,6.7298640364042805,WS,680,19,418
adams_marchman_2018,13096,male,18,21,3,22,8,0.493829197422486,0.516053343685799,1812.5,7.272988792394947,WS,680,19,419
adams_marchman_2018,13128,female,16,21,5,17,7,0.5278949521891819,0.542684597019332,1742.857142857143,7.385760223338735,WS,680,151,420
adams_marchman_2018,13128,female,16,21,5,25,4,0.5157100374917937,0.5344221158557083,781.25,6.544421275863241,WS,680,151,421
adams_marchman_2018,13128,female,18,21,3,32,12,0.6399335711239317,0.6783791216948144,1404.1666666666663,7.101173151060649,WS,680,151,422
adams_marchman_2018,13128,female,19,21,2,32,13,0.6463419965849253,0.616470773381518,1405.7692307692307,7.0670248797738315,WS,680,151,423
adams_marchman_2018,13131,male,15,20,5,7,2,0.4682051925247711,0.4605162990604605,1887.5,7.531271425875328,WS,680,52,424
adams_marchman_2018,13131,male,15,20,5,15,3,0.3927924714661985,0.43916179352585394,1358.3333333333333,7.042075938278819,WS,680,52,425
adams_marchman_2018,13131,male,19,20,1,24,5,0.4864554039321779,0.4684437090016413,1505,7.105491758476864,WS,680,52,426
adams_marchman_2018,13131,male,19,20,1,30,5,0.372492675231012,0.4125582175838168,2675,7.86603601189457,WS,680,52,427
adams_marchman_2018,13142,female,15,21,6,26,14,0.7755969055380488,0.7323300993124751,689.2857142857143,6.517527411526925,WS,680,247,428
adams_marchman_2018,13142,female,15,21,6,8,2,0.5711343751974328,0.6276602098546945,1475,7.188455233846598,WS,680,247,429
adams_marchman_2018,13142,female,18,21,3,24,11,0.5830785579205546,0.554932071494975,1100,6.74276299437635,WS,680,247,430
adams_marchman_2018,13142,female,18,21,3,26,11,0.710637683856724,0.7251626508650001,950,6.798643269607463,WS,680,247,431
adams_marchman_2018,13151,female,17,21,4,32,21,0.7924032246740358,0.823153590748884,757.1428571428571,6.589311638457361,WS,680,326,432
adams_marchman_2018,13151,female,17,21,4,32,18,0.8506053806815631,0.7641105344721674,570.8333333333334,6.338427144962795,WS,680,326,433
adams_marchman_2018,13151,female,18,21,3,32,16,0.7934096086960665,0.6964840468110413,609.375,6.3967694432984885,WS,680,326,434
adams_marchman_2018,13151,female,18,21,3,30,13,0.6998013111664603,0.686636810797919,605.7692307692307,6.392001613562265,WS,680,326,435
adams_marchman_2018,13191,female,16,21,5,21,7,0.5142683629531969,0.5488142908010115,1107.142857142857,6.866497339776767,WS,680,44,436
adams_marchman_2018,13191,female,16,21,5,21,3,0.561463028152309,0.6248182561987378,2066.6666666666665,7.595322155248452,WS,680,44,437
adams_marchman_2018,13191,female,18,21,3,32,16,0.6379375661581886,0.5893100165240798,1217.1875,6.977904922587002,WS,680,44,438
adams_marchman_2018,13191,female,18,21,3,32,7,0.5685729715366973,0.5352172175064601,1103.571428571429,6.953124272139352,WS,680,44,439
adams_marchman_2018,13293,female,15,23,8,31,7,0.6174058637149387,0.621032662643971,1307.142857142857,6.955298431817821,WS,680,429,446
adams_marchman_2018,13293,female,15,23,8,32,12,0.6288193451196102,0.5990373543798114,1689.5833333333333,7.240072894680096,WS,680,429,447
adams_marchman_2018,13293,female,19,23,4,32,15,0.6141827605171876,0.6328645585418631,670,6.414117444790597,WS,680,429,448
adams_marchman_2018,13293,female,19,23,4,28,13,0.4628574905817495,0.5483817354892527,1046.1538461538462,6.745520329843498,WS,680,429,449
adams_marchman_2018,13304,female,17,23,6,12,6,0.5023433023559598,0.5658752868860476,983.3333333333334,6.841456546939234,WS,680,92,450
adams_marchman_2018,13304,female,17,23,6,22,12,0.44151110561818574,0.4174824191512389,1187.5,6.953127890849803,WS,680,92,451
adams_marchman_2018,13304,female,18,23,5,27,12,0.6528917773540381,0.5620120858345842,687.5,6.4984233243349765,WS,680,92,452
adams_marchman_2018,13304,female,18,23,5,26,13,0.7750235581860414,0.7665360859054217,590.3846153846154,6.349370107140012,WS,680,92,453
adams_marchman_2018,13326,male,16,21,5,29,14,0.7638269526945534,0.7125193244998356,717.8571428571429,6.540894873246988,WS,680,46,454
adams_marchman_2018,13326,male,16,21,5,19,5,0.602079992303522,0.5548463758387597,1280,6.991654074207642,WS,680,46,455
adams_marchman_2018,13326,male,18,21,3,29,11,0.7001199568784234,0.6563889767046327,1161.3636363636365,6.85614242111572,WS,680,46,456
adams_marchman_2018,13326,male,18,21,3,29,12,0.5761388155388352,0.4892034025985692,1043.75,6.757119773884307,WS,680,46,457
adams_marchman_2018,13332,male,15,21,6,27,14,0.6840136175122546,0.6208519747119374,732.1428571428571,6.54465384527492,WS,680,184,458
adams_marchman_2018,13332,male,15,21,6,27,15,0.7215815281242585,0.6532412721695708,751.6666666666666,6.564258558474541,WS,680,184,459
adams_marchman_2018,13332,male,18,21,3,25,12,0.5949250955161249,0.5672696991265037,893.75,6.75167701202,WS,680,184,460
adams_marchman_2018,13332,male,18,21,3,21,12,0.6789979248035707,0.7055628796134663,745.8333333333334,6.5820291740265775,WS,680,184,461
adams_marchman_2018,13346,male,15,22,7,31,8,0.6026932999574536,0.6027139831828542,1865.625,7.4593016007017185,WS,680,132,462
adams_marchman_2018,13346,male,16,22,6,32,12,0.6653299006063553,0.6026616390510723,1079.1666666666667,6.889734441166077,WS,680,132,463
adams_marchman_2018,13346,male,19,22,3,30,14,0.5751470516983702,0.5850243287536459,1041.071428571429,6.870858744387833,WS,680,132,464
adams_marchman_2018,13346,male,19,22,3,29,7,0.7679504546937103,0.7296064321289483,807.1428571428571,6.653249537784791,WS,680,132,465
adams_marchman_2018,13503,male,15,21,6,32,15,0.6789820722460099,0.7201903659000295,1176.6666666666667,6.988087952773821,WS,680,431,468
adams_marchman_2018,13503,male,16,21,5,31,18,0.7452384071818952,0.7713669722020315,863.8888888888889,6.7196255382121315,WS,680,431,469
adams_marchman_2018,13503,male,18,21,3,23,15,0.6604724619792801,0.761246992947666,1001.6666666666666,6.846035005628275,WS,680,431,470
adams_marchman_2018,13503,male,18,21,3,29,12,0.6532479315565302,0.6778529982521976,837.5,6.692554994784627,WS,680,431,471
adams_marchman_2018,13604,male,16,24,8,24,9,0.5554813838527561,0.5559557216250193,1180.5555555555557,6.990114669599685,WS,680,139,472
adams_marchman_2018,13604,male,16,24,8,27,6,0.5596530904833144,0.5164853106320931,879.1666666666666,6.688606824651275,WS,680,139,473
adams_marchman_2018,13604,male,20,24,4,30,4,0.3291549028613295,0.3128918201027124,1325,7.070053336907543,WS,680,139,474
adams_marchman_2018,13604,male,20,24,4,29,12,0.4030891896069766,0.3858422716633543,1293.75,6.962480105865622,WS,680,139,475
adams_marchman_2018,13628,male,16,24,8,29,15,0.5753302031468805,0.47406825189297414,1006.6666666666669,6.807359058603626,WS,680,139,476
adams_marchman_2018,13628,male,16,24,8,26,13,0.6752577520164366,0.5726617677670414,744.2307692307693,6.554220956193818,WS,680,139,477
adams_marchman_2018,13628,male,20,24,4,26,12,0.7011795015723017,0.6653019442405536,577.0833333333334,6.340559522106045,WS,680,139,478
adams_marchman_2018,13628,male,20,24,4,30,13,0.651732159412847,0.6364648287864535,667.3076923076923,6.466440216838953,WS,680,139,479
adams_marchman_2018,13648,female,15,21,6,21,10,0.6790006380800063,0.6228579988485118,907.5,6.793887003924226,WS,680,385,480
adams_marchman_2018,13648,female,15,21,6,28,12,0.6998676849129832,0.6612057970873247,1262.5,7.09658060072744,WS,680,385,481
adams_marchman_2018,13648,female,17,21,4,26,14,0.7679701009349177,0.7903478364012771,796.4285714285714,6.648908852322142,WS,680,385,482
adams_marchman_2018,13648,female,18,21,3,27,10,0.6729109282464796,0.6816652474209887,807.5,6.590651037764129,WS,680,385,483
adams_marchman_2018,911343,male,16,21,5,25,8,0.5778042686953777,0.5554255044914983,1337.5,7.077194406012905,WS,680,74,484
adams_marchman_2018,911343,male,17,21,4,20,11,0.6003837865844197,0.5530343444132645,1045.4545454545455,6.921433836964995,WS,680,74,485
adams_marchman_2018,911343,male,18,21,3,24,6,0.6204201813142529,0.6160714175363003,983.3333333333334,6.8808313050612675,WS,680,74,486
adams_marchman_2018,911343,male,19,21,2,21,12,0.5196695639865002,0.4820150729975215,954.1666666666666,6.771757989394852,WS,680,74,487
adams_marchman_2018,911401,male,16,21,5,9,4,0.6778906353364558,0.6521236840385777,781.25,6.630287593891287,WS,680,98,488
adams_marchman_2018,911401,male,16,21,5,17,5,0.4395758484390419,0.429882251430018,1370,7.206769483658146,WS,680,98,489
adams_marchman_2018,911401,male,18,21,3,30,10,0.6635406053615474,0.6756655138410175,1305,7.1076985306863705,WS,680,98,490
adams_marchman_2018,911401,male,19,21,2,23,9,0.6297522700576524,0.6574562376448987,841.6666666666666,6.678327393026925,WS,680,98,491
adams_marchman_2018,911429,male,16,21,5,30,15,0.6587441824702432,0.6328586380817272,910,6.70323781017471,WS,680,191,492
adams_marchman_2018,911429,male,16,21,5,29,9,0.6224727659607489,0.6036458143248677,966.6666666666666,6.757682714721932,WS,680,191,493
adams_marchman_2018,911429,male,18,21,3,32,11,0.7290496750252078,0.7634614476938555,1011.3636363636364,6.850682006617553,WS,680,191,494
adams_marchman_2018,911429,male,19,21,2,31,12,0.6833977181597566,0.6863814910493433,920.8333333333334,6.694378923956431,WS,680,191,495
